{
  "resourceType": "Bundle",
  "type": "transaction",
  "entry": [
    {
      "resource": {
        "resourceType": "Patient",
        "id": "example-rec-04-long-acting-opioid",
        "gender": "male",
        "birthDate": "1982-01-07"
      },
      "request": {
        "method": "PUT",
        "url": "http://localhost:8080/cqf-ruler/baseDstu3/Patient/example-rec-04-long-acting-opioid"
      }
    },
    {
      "resource": {
        "resourceType": "Patient",
        "id": "example-rec-05-mme-greater-than-fifty",
        "gender": "female",
        "birthDate": "1982-01-07"
      },
      "request": {
        "method": "PUT",
        "url": "http://localhost:8080/cqf-ruler/baseDstu3/Patient/example-rec-05-mme-greater-than-fifty"
      }
    },
    {
      "resource": {
        "resourceType" : "Patient",
        "id" : "example-rec-07-seven-of-past-ten-days",
        "gender" : "male",
        "birthDate" : "1982-01-07"
      },
      "request": {
        "method": "PUT",
        "url": "http://localhost:8080/cqf-ruler/baseDstu3/Patient/example-rec-07-seven-of-past-ten-days"
      }
    },
    {
      "resource": {
        "resourceType" : "Patient",
        "id" : "example-rec-08-mme-greater-than-fifty",
        "gender" : "male",
        "birthDate" : "1982-01-07"
      },
      "request": {
        "method": "PUT",
        "url": "http://localhost:8080/cqf-ruler/baseDstu3/Patient/example-rec-08-mme-greater-than-fifty"
      }
    },
    {
      "resource": {
        "resourceType" : "Patient",
        "id" : "example-rec-10-missing-prescribed-opioids",
        "gender" : "female",
        "birthDate" : "1982-01-07"
      },
      "request": {
        "method": "PUT",
        "url": "http://localhost:8080/cqf-ruler/baseDstu3/Patient/example-rec-10-missing-prescribed-opioids"
      }
    },
    {
      "resource": {
        "resourceType": "Library",
        "id": "OMTKData",
        "version": "0.0.0",
        "status": "draft",
        "type": {
          "coding": [
            {
              "code": "logic-library"
            }
          ]
        },
        "content": [
          {
            "contentType": "application/elm+xml",
            "data": ""
          }
        ]
      },
      "request": {
        "method": "PUT",
        "url": "http://localhost:8080/cqf-ruler/baseDstu3/Library/OMTKData"
      }
    },
    {
      "resource": {
        "resourceType": "Library",
        "id": "OMTKLogic",
        "version": "0.0.1",
        "status": "draft",
        "type": {
          "coding": [
            {
              "code": "logic-library"
            }
          ]
        },
        "content": [
          {
            "contentType": "application/elm+xml",
            "data": ""
          }
        ]
      },
      "request": {
        "method": "PUT",
        "url": "http://localhost:8080/cqf-ruler/baseDstu3/Library/OMTKLogic"
      }
    },
    {
      "resource": {
        "resourceType": "Library",
        "id": "OpioidCDSCommonSTU3",
        "version": "0.1.0",
        "type": {
          "coding": [
            {
              "code": "logic-library"
            }
          ]
        },
        "status": "draft",
        "content": [
          {
            "contentType": "application/elm+xml",
            "data": ""
          }
        ]
      },
      "request": {
        "method": "PUT",
        "url": "http://localhost:8080/cqf-ruler/baseDstu3/Library/OpioidCDSCommonSTU3"
      }
    },
    {
      "resource": {
        "resourceType": "Library",
        "id": "opioidcds-recommendation-04",
        "version": "0.1.0",
        "type": {
          "coding": [
            {
              "code": "logic-library"
            }
          ]
        },
        "status": "draft",
        "content": [
          {
            "contentType": "application/elm+xml",
            "data": ""
          }
        ]
      },
      "request": {
        "method": "PUT",
        "url": "http://localhost:8080/cqf-ruler/baseDstu3/Library/opioidcds-recommendation-04"
      }
    },
    {
      "resource": {
        "resourceType": "Library",
        "id": "opioidcds-recommendation-05",
        "version": "0.1.0",
        "type": {
          "coding": [
            {
              "code": "logic-library"
            }
          ]
        },
        "status": "draft",
        "content": [
          {
            "contentType": "application/elm+xml",
            "data": ""
          }
        ]
      },
      "request": {
        "method": "PUT",
        "url": "http://localhost:8080/cqf-ruler/baseDstu3/Library/opioidcds-recommendation-05"
      }
    },
    {
      "resource": {
        "resourceType": "Library",
        "id": "opioidcds-recommendation-07",
        "version": "0.1.0",
        "type": {
          "coding": [
            {
              "code": "logic-library"
            }
          ]
        },
        "status": "draft",
        "content": [
          {
            "contentType": "application/elm+xml",
            "data": ""
          }
        ]
      },
      "request": {
        "method": "PUT",
        "url": "http://localhost:8080/cqf-ruler/baseDstu3/Library/opioidcds-recommendation-07"
      }
    },
    {
      "resource": {
        "resourceType": "Library",
        "id": "opioidcds-recommendation-08",
        "version": "0.1.0",
        "type": {
          "coding": [
            {
              "code": "logic-library"
            }
          ]
        },
        "status": "draft",
        "content": [
          {
            "contentType": "application/elm+xml",
            "data": ""
          }
        ]
      },
      "request": {
        "method": "PUT",
        "url": "http://localhost:8080/cqf-ruler/baseDstu3/Library/opioidcds-recommendation-08"
      }
    },
    {
      "resource": {
        "resourceType": "Library",
        "id": "opioidcds-recommendation-10",
        "version": "0.1.0",
        "type": {
          "coding": [
            {
              "code": "logic-library"
            }
          ]
        },
        "status": "draft",
        "content": [
          {
            "contentType": "application/elm+xml",
            "data": ""
          }
        ]
      },
      "request": {
        "method": "PUT",
        "url": "http://localhost:8080/cqf-ruler/baseDstu3/Library/opioidcds-recommendation-10"
      }
    },
    {
      "resource": {
        "resourceType": "Library",
        "id": "opioidcds-recommendation-11",
        "version": "0.1.0",
        "type": {
          "coding": [
            {
              "code": "logic-library"
            }
          ]
        },
        "status": "draft",
        "content": [
          {
            "contentType": "application/elm+xml",
            "data": ""
          }
        ]
      },
      "request": {
        "method": "PUT",
        "url": "http://localhost:8080/cqf-ruler/baseDstu3/Library/opioidcds-recommendation-11"
      }
    },
    {
      "resource": {
        "resourceType": "PlanDefinition",
        "id": "cdc-opioid-guidance-04",
        "text": {
          "status": "generated",
          "div": "<div xmlns=\"http://www.w3.org/1999/xhtml\">CDC Opioid Prescribing Guideline Recommendation #4</div>"
        },
        "identifier": [
          {
            "use": "official",
            "value": "cdc-opioid-guidance"
          }
        ],
        "version": "0.1.0",
        "name": "cdc-opioid-04",
        "title": "CDC Opioid Prescribing Guideline Recommendation #4",
        "type": {
          "coding": [
            {
              "system": "http://hl7.org/fhir/plan-definition-type",
              "code": "eca-rule",
              "display": "ECA Rule"
            }
          ]
        },
        "status": "draft",
        "date": "2017-04-23",
        "publisher": "Centers for Disease Control and Prevention (CDC)",
        "topic": [
          {
            "text": "Opioid Prescribing"
          }
        ],
        "library": [
          {
            "reference": "Library/opioidcds-recommendation-04"
          }
        ],
        "action": [
          {
            "title": "Extended-release opioid prescription triggered.",
            "description": "Checking if the trigger prescription meets the inclusion criteria for recommendation #4 workflow.",
            "documentation": [
              {
                "type": "documentation",
                "display": "CDC guideline for prescribing opioids for chronic pain",
                "url": "https://guidelines.gov/summaries/summary/50153/cdc-guideline-for-prescribing-opioids-for-chronic-pain---united-states-2016#420"
              }
            ],
            "triggerDefinition": [
              {
                "type": "named-event",
                "eventName": "medication-prescribe"
              }
            ],
            "condition": [
              {
                "kind": "applicability",
                "description": "Check whether the opioid prescription for the existing patient is extended-release without any opioids-with-abuse-potential prescribed in the past 90 days.",
                "language": "text/cql",
                "expression": "Inclusion Criteria"
              }
            ],
            "groupingBehavior": "visual-group",
            "selectionBehavior": "exactly-one",
            "dynamicValue": [
              {
                "path": "action.title",
                "expression": "Get Summary"
              },
              {
                "path": "action.description",
                "expression": "Get Detail"
              },
              {
                "path": "activity.extension",
                "expression": "Get Indicator"
              }
            ]
          }
        ]
      },
      "request": {
        "method": "PUT",
        "url": "http://localhost:8080/cqf-ruler/baseDstu3/PlanDefinition/cdc-opioid-guidance-04"
      }
    },
    {
      "resource": {
        "resourceType": "PlanDefinition",
        "id": "cdc-opioid-guidance-05",
        "text": {
          "status": "generated",
          "div": "<div xmlns=\"http://www.w3.org/1999/xhtml\">CDC Opioid Prescribing Guideline Recommendation #5</div>"
        },
        "identifier": [
          {
            "use": "official",
            "value": "cdc-opioid-guidance"
          }
        ],
        "version": "0.1.0",
        "name": "cdc-opioid-05",
        "title": "CDC Opioid Prescribing Guideline Recommendation #5",
        "type": {
          "coding": [
            {
              "system": "http://hl7.org/fhir/plan-definition-type",
              "code": "eca-rule",
              "display": "ECA Rule"
            }
          ]
        },
        "status": "draft",
        "date": "2017-04-23",
        "publisher": "Centers for Disease Control and Prevention (CDC)",
        "topic": [
          {
            "text": "Opioid Prescribing"
          }
        ],
        "relatedArtifact": [
          {
            "type" : "documentation",
            "display" : "MME Conversion Tables",
            "url" : "https://www.cdc.gov/drugoverdose/pdf/calculating_total_daily_dose-a.pdf"
          }
        ],
        "library": [
          {
            "reference": "Library/opioidcds-recommendation-05"
          }
        ],
        "action": [
          {
            "documentation": [
              {
                "type": "documentation",
                "display": "CDC guideline for prescribing opioids for chronic pain",
                "url": "https://guidelines.gov/summaries/summary/50153/cdc-guideline-for-prescribing-opioids-for-chronic-pain---united-states-2016#420"
              }
            ],
            "triggerDefinition": [
              {
                "type": "named-event",
                "eventName": "medication-prescribe"
              }
            ],
            "condition": [
              {
                "kind": "applicability",
                "language": "text/cql",
                "expression": "Inclusion Criteria"
              }
            ],
            "groupingBehavior": "visual-group",
            "selectionBehavior": "exactly-one",
            "dynamicValue": [
              {
                "path": "action.title",
                "expression": "Get Summary"
              },
              {
                "path": "action.description",
                "expression": "Get Detail"
              },
              {
                "path": "activity.extension",
                "expression": "Get Indicator"
              }
            ]
          }
        ]
      },
      "request": {
        "method": "PUT",
        "url": "http://localhost:8080/cqf-ruler/baseDstu3/PlanDefinition/cdc-opioid-guidance-05"
      }
    },
    {
      "resource": {
        "resourceType": "ActivityDefinition",
        "id": "risk-assessment-request",
        "status": "active",
        "kind": "ProcedureRequest",
        "code": {
          "coding": [
            {
              "system": "http://snomed.info/sct",
              "code": "454281000124100",
              "display": "Assessment of risk for opioid abuse (procedure)"
            }
          ]
        }
      },
      "request": {
        "method": "PUT",
        "url": "http://localhost:8080/cqf-ruler/baseDstu3/ActivityDefinition/risk-assessment-request"
      }
    },
    {
      "resource": {
        "resourceType": "PlanDefinition",
        "id": "cdc-opioid-guidance-07",
        "text": {
          "status": "generated",
          "div": "<div xmlns=\"http://www.w3.org/1999/xhtml\">CDC Opioid Prescribing Guideline Recommendation #7</div>"
        },
        "identifier": [
          {
            "use": "official",
            "value": "cdc-opioid-guidance"
          }
        ],
        "version": "0.1.0",
        "name": "cdc-opioid-07",
        "title": "CDC Opioid Prescribing Guideline Recommendation #7",
        "type": {
          "coding": [
            {
              "system": "http://hl7.org/fhir/plan-definition-type",
              "code": "eca-rule",
              "display": "ECA Rule"
            }
          ]
        },
        "status": "draft",
        "date": "2017-04-23",
        "publisher": "Centers for Disease Control and Prevention (CDC)",
        "topic": [
          {
            "text": "Opioid Prescribing"
          }
        ],
        "library": [
          {
            "reference": "Library/opioidcds-recommendation-07"
          }
        ],
        "action": [
          {
            "label": "Assessment of risk for opioid use procedure",
            "documentation": [
              {
                "type": "documentation",
                "display": "CDC guideline for prescribing opioids for chronic pain",
                "url": "https://guidelines.gov/summaries/summary/50153/cdc-guideline-for-prescribing-opioids-for-chronic-pain---united-states-2016#420"
              }
            ],
            "triggerDefinition": [
              {
                "type": "named-event",
                "eventName": "medication-prescribe"
              }
            ],
            "condition": [
              {
                "kind": "applicability",
                "language": "text/cql",
                "expression": "Inclusion Criteria"
              }
            ],
            "type": {
              "system": "http://hl7.org/fhir/action-type",
              "code": "create"
            },
            "groupingBehavior": "visual-group",
            "selectionBehavior": "exactly-one",
            "definition": {
              "reference": "ActivityDefinition/risk-assessment-request"
            },
            "dynamicValue": [
              {
                "path": "action.title",
                "expression": "Get Summary"
              },
              {
                "path": "action.description",
                "expression": "Get Detail"
              },
              {
                "path": "activity.extension",
                "expression": "Get Indicator"
              }
            ]
          }
        ]
      },
      "request": {
        "method": "PUT",
        "url": "http://localhost:8080/cqf-ruler/baseDstu3/PlanDefinition/cdc-opioid-guidance-07"
      }
    },
    {
      "resource": {
        "resourceType": "PlanDefinition",
        "id": "cdc-opioid-guidance-08",
        "text": {
          "status": "generated",
          "div": "<div xmlns=\"http://www.w3.org/1999/xhtml\">CDC Opioid Prescribing Guideline Recommendation #8</div>"
        },
        "identifier": [
          {
            "use": "official",
            "value": "cdc-opioid-guidance"
          }
        ],
        "version": "0.1.0",
        "name": "cdc-opioid-08",
        "title": "CDC Opioid Prescribing Guideline Recommendation #8",
        "type": {
          "coding": [
            {
              "system": "http://hl7.org/fhir/plan-definition-type",
              "code": "eca-rule",
              "display": "ECA Rule"
            }
          ]
        },
        "status": "draft",
        "date": "2017-04-23",
        "publisher": "Centers for Disease Control and Prevention (CDC)",
        "topic": [
          {
            "text": "Opioid Prescribing"
          }
        ],
        "relatedArtifact": [
          {
            "type" : "documentation",
            "display" : "MME Conversion Tables",
            "url" : "https://www.cdc.gov/drugoverdose/pdf/calculating_total_daily_dose-a.pdf"
          }
        ],
        "library": [
          {
            "reference": "Library/opioidcds-recommendation-08"
          }
        ],
        "action": [
          {
            "documentation": [
              {
                "type": "documentation",
                "display": "CDC guideline for prescribing opioids for chronic pain",
                "url": "https://guidelines.gov/summaries/summary/50153/cdc-guideline-for-prescribing-opioids-for-chronic-pain---united-states-2016#420"
              }
            ],
            "triggerDefinition": [
              {
                "type": "named-event",
                "eventName": "medication-prescribe"
              }
            ],
            "condition": [
              {
                "kind": "applicability",
                "language": "text/cql",
                "expression": "Inclusion Criteria"
              }
            ],
            "groupingBehavior": "visual-group",
            "selectionBehavior": "exactly-one",
            "dynamicValue": [
              {
                "path": "action.title",
                "expression": "Get Summary"
              },
              {
                "path": "action.description",
                "expression": "Get Detail"
              },
              {
                "path": "activity.extension",
                "expression": "Get Indicator"
              }
            ]
          }
        ]
      },
      "request": {
        "method": "PUT",
        "url": "http://localhost:8080/cqf-ruler/baseDstu3/PlanDefinition/cdc-opioid-guidance-08"
      }
    },
    {
      "resource": {
        "resourceType" : "PlanDefinition",
        "id" : "cdc-opioid-guidance-10",
        "url" : "http://hl7.org/fhir/ig/opioid-cds/PlanDefinition/opioidcds-10",
        "identifier" : [
          {
            "use" : "official",
            "value" : "cdc-opioid-guidance"
          }
        ],
        "version" : "0.1.0",
        "name" : "cdc-opioid-10",
        "title" : "CDC Opioid Prescribing Guideline Recommendation #10",
        "type" : {
          "coding" : [
            {
              "system" : "http://hl7.org/fhir/plan-definition-type",
              "code" : "eca-rule",
              "display" : "ECA Rule"
            }
          ]
        },
        "status" : "draft",
        "date" : "2017-04-23",
        "publisher" : "Centers for Disease Control and Prevention (CDC)",
        "description" : "When prescribing opioids for chronic pain, providers should use urine drug testing before starting opioid therapy and consider urine drug testing at least annually to assess for prescribed medications as well as other controlled prescription drugs and illicit drugs.",
        "purpose" : "CDC’s Guideline for Prescribing Opioids for Chronic Pain is intended to improve communication between providers and patients about the risks and benefits of opioid therapy for chronic pain, improve the safety and effectiveness of pain treatment, and reduce the risks associated with long-term opioid therapy, including opioid use disorder and overdose. The Guideline is not intended for patients who are in active cancer treatment, palliative care, or end-of-life care.",
        "usage" : "Providers should be aware if patients are taking other prescription drugs or illicit drugs that might increase their risk of an overdose.",
        "useContext" : [
          {
            "code" : {
              "system" : "http://hl7.org/fhir/usage-context-type",
              "code" : "focus",
              "display" : "Clinical Focus"
            },
            "valueCodeableConcept" : {
              "coding" : [
                {
                  "system" : "http://snomed.info/sct",
                  "code" : "182888003",
                  "display" : "Medication requested (situation)"
                }
              ]
            }
          },
          {
            "code" : {
              "system" : "http://hl7.org/fhir/usage-context-type",
              "code" : "focus",
              "display" : "Clinical Focus"
            },
            "valueCodeableConcept" : {
              "coding" : [
                {
                  "system" : "http://snomed.info/sct",
                  "code" : "82423001",
                  "display" : "Chronic pain (finding)"
                }
              ]
            }
          }
        ],
        "jurisdiction" : [
          {
            "coding" : [
              {
                "system" : "urn:iso:std:iso:3166",
                "code" : "US",
                "display" : "United States of America"
              }
            ]
          }
        ],
        "topic" : [
          {
            "text" : "Opioid Prescribing"
          }
        ],
        "contributor" : [
          {
            "type" : "author",
            "name" : "Kensaku Kawamoto, MD, PhD, MHS"
          },
          {
            "type" : "author",
            "name" : "Bryn Rhodes"
          },
          {
            "type" : "author",
            "name" : "Floyd Eisenberg, MD, MPH"
          },
          {
            "type" : "author",
            "name" : "Robert McClure, MD, MPH"
          }
        ],
        "copyright" : "© CDC 2016+.",
        "library" : [
          {
            "reference" : "Library/opioidcds-recommendation-10"
          }
        ],
        "action" : [
          {
            "triggerDefinition" : [
              {
                "type" : "named-event",
                "eventName" : "medication-prescribe"
              }
            ],
            "condition" : [
              {
                "kind" : "applicability",
                "description" : "Patient has not had a urine screening in the past 12 months",
                "language" : "text/cql",
                "expression" : "Inclusion Criteria"
              }
            ],
            "action" : [
              {
                "title" : "Annual Urine Screening Check",
                "description" : "Patient has not had a urine screening in the past 12 months",
                "documentation" : [
                  {
                    "type": "documentation",
                    "display": "CDC guideline for prescribing opioids for chronic pain",
                    "url": "https://guidelines.gov/summaries/summary/50153/cdc-guideline-for-prescribing-opioids-for-chronic-pain---united-states-2016#420"
                  },
                  {
                    "type" : "documentation",
                    "document" : {
                      "extension" : [
                        {
                          "url" : "http://hl7.org/fhir/StructureDefinition/cqif-strengthOfRecommendation",
                          "valueCodeableConcept" : {
                            "coding" : [
                              {
                                "system" : "http://hl7.org/fhir/recommendation-strength",
                                "code" : "strong",
                                "display" : "Strong"
                              }
                            ]
                          }
                        },
                        {
                          "url" : "http://hl7.org/fhir/StructureDefinition/cqif-qualityOfEvidence",
                          "valueCodeableConcept" : {
                            "coding" : [
                              {
                                "system" : "http://hl7.org/fhir/evidence-quality",
                                "code" : "low",
                                "display" : "Low quality"
                              }
                            ]
                          }
                        }
                      ]
                    }
                  }
                ],
                "triggerDefinition" : [
                  {
                    "type" : "named-event",
                    "eventName" : "medication-prescribe"
                  }
                ],
                "condition" : [
                  {
                    "kind" : "applicability",
                    "description" : "Patient has not had a urine screening in the past 12 months",
                    "language" : "text/cql",
                    "expression" : "No Urine Screening In Last 12 Months"
                  }
                ],
                "dynamicValue" : [
                  {
                    "path" : "activity.extension",
                    "expression" : "Get Indicator"
                  }
                ],
                "action" : [
                  {
                    "description" : "Will perform urine screening"
                  },
                  {
                    "description" : "Not for chronic pain management. Snooze 3 months"
                  }
                ]
              },
              {
                "title" : "Unprescribed Opioids Found In Urine Screening",
                "description" : "Patient has a positive urine screening in the past 12 months for opioid(s), which is not prescribed",
                "documentation" : [
                  {
                    "type": "documentation",
                    "display": "CDC guideline for prescribing opioids for chronic pain",
                    "url": "https://guidelines.gov/summaries/summary/50153/cdc-guideline-for-prescribing-opioids-for-chronic-pain---united-states-2016#420"
                  },
                  {
                    "type" : "documentation",
                    "document" : {
                      "extension" : [
                        {
                          "url" : "http://hl7.org/fhir/StructureDefinition/cqif-strengthOfRecommendation",
                          "valueCodeableConcept" : {
                            "coding" : [
                              {
                                "system" : "http://hl7.org/fhir/recommendation-strength",
                                "code" : "strong",
                                "display" : "Strong"
                              }
                            ]
                          }
                        },
                        {
                          "url" : "http://hl7.org/fhir/StructureDefinition/cqif-qualityOfEvidence",
                          "valueCodeableConcept" : {
                            "coding" : [
                              {
                                "system" : "http://hl7.org/fhir/evidence-quality",
                                "code" : "low",
                                "display" : "Low quality"
                              }
                            ]
                          }
                        }
                      ]
                    }
                  }
                ],
                "condition" : [
                  {
                    "kind" : "applicability",
                    "description" : "Patient has a positive urine screening in the past 12 months for opioid(s), which is not prescribed",
                    "language" : "text/cql",
                    "expression" : "Has Unprescribed Opioids?"
                  }
                ],
                "dynamicValue" : [
                  {
                    "path" : "activity.extension",
                    "expression" : "Get Indicator"
                  },
                  {
                    "path" : "action.description",
                    "expression" : "Inconsistent Unprescribed Opioids"
                  }
                ],
                "action" : [
                  {
                    "description" : "Not for chronic pain management. Snooze 3 months"
                  }
                ]
              },
              {
                "title" : "Prescribed Opioids Not Found In Urine Screening",
                "description" : "Patient has a positive urine screening in the past 12 months, which does not include prescribed opioids",
                "documentation" : [
                  {
                    "type": "documentation",
                    "display": "CDC guideline for prescribing opioids for chronic pain",
                    "url": "https://guidelines.gov/summaries/summary/50153/cdc-guideline-for-prescribing-opioids-for-chronic-pain---united-states-2016#420"
                  },
                  {
                    "type" : "documentation",
                    "document" : {
                      "extension" : [
                        {
                          "url" : "http://hl7.org/fhir/StructureDefinition/cqif-strengthOfRecommendation",
                          "valueCodeableConcept" : {
                            "coding" : [
                              {
                                "system" : "http://hl7.org/fhir/recommendation-strength",
                                "code" : "strong",
                                "display" : "Strong"
                              }
                            ]
                          }
                        },
                        {
                          "url" : "http://hl7.org/fhir/StructureDefinition/cqif-qualityOfEvidence",
                          "valueCodeableConcept" : {
                            "coding" : [
                              {
                                "system" : "http://hl7.org/fhir/evidence-quality",
                                "code" : "low",
                                "display" : "Low quality"
                              }
                            ]
                          }
                        }
                      ]
                    }
                  }
                ],
                "condition" : [
                  {
                    "kind" : "applicability",
                    "description" : "Patient has a positive urine screening in the past 12 months, which does not include prescribed opioids",
                    "language" : "text/cql",
                    "expression" : "Has Missing Opioids?"
                  }
                ],
                "dynamicValue" : [
                  {
                    "path" : "activity.extension",
                    "expression" : "Get Indicator"
                  },
                  {
                    "path" : "action.description",
                    "expression" : "Inconsistent Missing Opioids"
                  }
                ]
              },
              {
                "title" : "Illicit Drugs Found In Urine Screening",
                "description" : "Patient has a positive urine screening in the past 12 months for illicit drugs",
                "documentation" : [
                  {
                    "type": "documentation",
                    "display": "CDC guideline for prescribing opioids for chronic pain",
                    "url": "https://guidelines.gov/summaries/summary/50153/cdc-guideline-for-prescribing-opioids-for-chronic-pain---united-states-2016#420"
                  },
                  {
                    "type" : "documentation",
                    "document" : {
                      "extension" : [
                        {
                          "url" : "http://hl7.org/fhir/StructureDefinition/cqif-strengthOfRecommendation",
                          "valueCodeableConcept" : {
                            "coding" : [
                              {
                                "system" : "http://hl7.org/fhir/recommendation-strength",
                                "code" : "strong",
                                "display" : "Strong"
                              }
                            ]
                          }
                        },
                        {
                          "url" : "http://hl7.org/fhir/StructureDefinition/cqif-qualityOfEvidence",
                          "valueCodeableConcept" : {
                            "coding" : [
                              {
                                "system" : "http://hl7.org/fhir/evidence-quality",
                                "code" : "low",
                                "display" : "Low quality"
                              }
                            ]
                          }
                        }
                      ]
                    }
                  }
                ],
                "condition" : [
                  {
                    "kind" : "applicability",
                    "description" : "Patient has a positive urine screening in the past 12 months for illicit drugs",
                    "language" : "text/cql",
                    "expression" : "Has Illicit Drugs in Screening?"
                  }
                ],
                "dynamicValue" : [
                  {
                    "path" : "activity.extension",
                    "expression" : "Get Indicator"
                  },
                  {
                    "path" : "action.description",
                    "expression" : "Inconsistent Illicit Drugs"
                  }
                ],
                "action" : [
                  {
                    "description" : "Not for chronic pain management. Snooze 3 months"
                  }
                ]
              }
            ]
          }
        ]
      },
      "request": {
        "method": "PUT",
        "url": "http://localhost:8080/cqf-ruler/baseDstu3/PlanDefinition/cdc-opioid-guidance-10"
      }
    },
    {
      "resource": {
        "resourceType": "PlanDefinition",
        "id": "cdc-opioid-guidance-11",
        "text": {
          "status": "generated",
          "div": "<div xmlns=\"http://www.w3.org/1999/xhtml\">CDC Opioid Prescribing Guideline Recommendation #11</div>"
        },
        "identifier": [
          {
            "use": "official",
            "value": "cdc-opioid-guidance"
          }
        ],
        "version": "0.1.0",
        "name": "cdc-opioid-04",
        "title": "CDC Opioid Prescribing Guideline Recommendation #11",
        "type": {
          "coding": [
            {
              "system": "http://hl7.org/fhir/plan-definition-type",
              "code": "eca-rule",
              "display": "ECA Rule"
            }
          ]
        },
        "status": "draft",
        "date": "2017-04-23",
        "publisher": "Centers for Disease Control and Prevention (CDC)",
        "topic": [
          {
            "text": "Opioid Prescribing"
          }
        ],
        "library": [
          {
            "reference": "Library/opioidcds-recommendation-11"
          }
        ],
        "action": [
          {
            "title": "Extended-release opioid prescription triggered.",
            "description": "Checking if the trigger prescription meets the inclusion criteria for recommendation #11 workflow.",
            "documentation": [
              {
                "type": "documentation",
                "display": "CDC guideline for prescribing opioids for chronic pain",
                "url": "https://guidelines.gov/summaries/summary/50153/cdc-guideline-for-prescribing-opioids-for-chronic-pain---united-states-2016#420"
              }
            ],
            "triggerDefinition": [
              {
                "type": "named-event",
                "eventName": "medication-prescribe"
              }
            ],
            "condition": [
              {
                "kind": "applicability",
                "language": "text/cql",
                "expression": "Inclusion Criteria"
              }
            ],
            "groupingBehavior": "visual-group",
            "selectionBehavior": "exactly-one",
            "dynamicValue": [
              {
                "path": "action.title",
                "expression": "Get Summary"
              },
              {
                "path": "action.description",
                "expression": "Get Detail"
              },
              {
                "path": "activity.extension",
                "expression": "Get Indicator"
              }
            ]
          }
        ]
      },
      "request": {
        "method": "PUT",
        "url": "http://localhost:8080/cqf-ruler/baseDstu3/PlanDefinition/cdc-opioid-guidance-11"
      }
    }
  ]
}