{
  "hookInstance": "ad826245-abcd-4ff3-a2d1-01c7fec62aee",
  "fhirServer": "http://localhost:8080/cqf-ruler/baseDstu3",
  "hook": "medication-prescribe",
  "user": "Practitioner/example",
  "applyCql": true,
  "context": {
    "patientId": "Patient/example-rec-10-missing-prescribed-opioids",
    "encounterId": "Encounter/example-rec-10-missing-prescribed-opioids-context",
    "medications": [
      {
        "resourceType": "MedicationRequest",
        "id": "example-rec-10-missing-prescribed-opioids-context",
        "status": "active",
        "intent": "order",
        "category": {
          "coding": [
            {
              "code": "outpatient"
            }
          ]
        },
        "medicationCodeableConcept": {
          "coding": [
            {
              "system": "http://www.nlm.nih.gov/research/umls/rxnorm",
              "code": "197696",
              "display": "72 HR Fentanyl 0.075 MG/HR Transdermal System"
            }
          ]
        },
        "subject": {
          "reference": "Patient/example-rec-10-missing-prescribed-opioids"
        },
        "context": {
          "reference": "Encounter/example-rec-10-missing-prescribed-opioids-context"
        },
        "_authoredOn": {
          "extension": [
            {
              "url": "http://hl7.org/fhir/StructureDefinition/cqif-cqlExpression",
              "valueString": "Today()"
            }
          ]
        },
        "dosageInstruction": [
          {
            "timing": {
              "repeat": {
                "frequency": 1,
                "period": 12.0,
                "periodUnit": "d"
              }
            },
            "asNeededBoolean": false,
            "doseQuantity": {
              "value": 1.0,
              "unit": "patch"
            }
          }
        ],
        "dispenseRequest": {
          "validityPeriod": {
            "extension": [
              {
                "url": "http://hl7.org/fhir/StructureDefinition/cqif-cqlExpression",
                "valueString": "FHIR.Period { start: FHIR.dateTime { value: Today() }, end: FHIR.dateTime { value: Today() + 3 months } }"
              }
            ]
          },
          "numberOfRepeatsAllowed": 3,
          "expectedSupplyDuration": {
            "value": 30.0,
            "unit": "d"
          }
        }
      }
    ]
 },
  "prefetch": {
    "item1": {
      "response": {
        "status": "200 OK"
      },
      "resource": {
        "resourceType": "Encounter",
        "id": "example-rec-10-missing-prescribed-opioids-prefetch",
        "status": "finished",
        "subject": {
          "reference": "Patient/example-rec-10-missing-prescribed-opioids"
        },
        "period": {
          "extension": [
            {
              "url": "http://hl7.org/fhir/StructureDefinition/cqif-cqlExpression",
              "valueString": "FHIR.Period { start: FHIR.dateTime { value: Today() - 90 days }, end: FHIR.dateTime { value: Today() - 90 days } }"
            }
          ]
        }
      }
    },
    "item2": {
      "response": {
        "status": "200 OK"
      },
      "resource": {
        "resourceType": "Observation",
        "id": "example-rec-10-missing-prescribed-opioids-prefetch",
        "status": "final",
        "code": {
          "coding": [
            {
              "system": "http://loinc.org",
              "code": "10998-3",
              "display": "Oxycodone [Presence] in Urine"
            }
          ]
        },
        "subject": {
          "reference": "Patient/example-rec-10-missing-prescribed-opioids"
        },
        "_effectiveDateTime": {
          "extension": [
            {
              "url": "http://hl7.org/fhir/StructureDefinition/cqif-cqlExpression",
              "valueString": "Today() - 28 days"
            }
          ]
        },
        "interpretation": {
          "coding": [
            {
              "code": "POS"
            }
          ]
        }
      }
   },
    "item3": {
      "response": {
        "status": "200 OK"
      },
      "resource": {
        "resourceType": "Bundle",
        "type": "searchset",
        "entry": [
          {
            "resource": {
              "resourceType": "MedicationRequest",
              "id": "example-rec-10-missing-prescribed-opioids-prefetch",
              "status": "active",
              "intent": "order",
              "category": {
                "coding": [
                  {
                    "code": "outpatient"
                  }
                ]
              },
              "medicationCodeableConcept": {
                "coding": [
                  {
                    "system": "http://www.nlm.nih.gov/research/umls/rxnorm",
                    "code": "1049502",
                    "display": "12 HR Oxycodone Hydrochloride 10 MG Extended Release Oral Tablet"
                  }
                ]
              },
              "subject": {
                "reference": "Patient/example-rec-10-missing-prescribed-opioids"
              },
              "context": {
                "reference": "Encounter/example-rec-10-missing-prescribed-opioids-prefetch"
              },
              "_authoredOn": {
                "extension": [
                  {
                    "url": "http://hl7.org/fhir/StructureDefinition/cqif-cqlExpression",
                    "valueString": "Today() - 90 days"
                  }
                ]
              },
              "dosageInstruction": [
                {
                  "timing": {
                    "repeat": {
                      "frequency": 3,
                      "period": 1.0,
                      "periodUnit": "d"
                    }
                  },
                  "asNeededBoolean": false,
                  "doseQuantity": {
                    "value": 1.0,
                    "unit": "tablet"
                  }
                }
              ],
              "dispenseRequest": {
                "validityPeriod": {
                  "extension": [
                    {
                      "url": "http://hl7.org/fhir/StructureDefinition/cqif-cqlExpression",
                      "valueString": "FHIR.Period { start: FHIR.dateTime { value: Today() - 90 days }, end: FHIR.dateTime { value: Today() } }"
                    }
                  ]
                },
                "numberOfRepeatsAllowed": 3,
                "expectedSupplyDuration": {
                  "value": 27.0,
                  "unit": "d"
                }
              }
            }
          },
          {
            "resource": {
              "resourceType": "MedicationRequest",
              "id": "example-rec-10-missing-prescribed-opioids-prefetch-fentanyl",
              "status": "active",
              "intent": "order",
              "category": {
                "coding": [
                  {
                    "code": "outpatient"
                  }
                ]
              },
              "medicationCodeableConcept": {
                "coding": [
                  {
                    "system": "http://www.nlm.nih.gov/research/umls/rxnorm",
                    "code": "197696",
                    "display": "72 HR Fentanyl 0.075 MG/HR Transdermal System"
                  }
                ]
              },
              "subject": {
                "reference": "Patient/example-rec-10-missing-prescribed-opioids"
              },
              "context": {
                "reference": "Encounter/example-rec-10-missing-prescribed-opioids-prefetch"
              },
              "_authoredOn": {
                "extension": [
                  {
                    "url": "http://hl7.org/fhir/StructureDefinition/cqif-cqlExpression",
                    "valueString": "Today() - 90 days"
                  }
                ]
              },
              "dosageInstruction": [
                {
                  "timing": {
                    "repeat": {
                      "frequency": 3,
                      "period": 1.0,
                      "periodUnit": "d"
                    }
                  },
                  "asNeededBoolean": false,
                  "doseQuantity": {
                    "value": 1.0,
                    "unit": "tablet"
                  }
                }
              ],
              "dispenseRequest": {
                "validityPeriod": {
                  "extension": [
                    {
                      "url": "http://hl7.org/fhir/StructureDefinition/cqif-cqlExpression",
                      "valueString": "FHIR.Period { start: FHIR.dateTime { value: Today() - 90 days }, end: FHIR.dateTime { value: Today() } }"
                    }
                  ]
                },
                "numberOfRepeatsAllowed": 3,
                "expectedSupplyDuration": {
                  "value": 27.0,
                  "unit": "d"
                }
              }
            }
          }
        ]
      }
    },
    "item4": {
      "response": {
        "status": "200 OK"
      },
      "resource": {
        "resourceType" : "Patient",
        "id" : "example-rec-10-missing-prescribed-opioids",
        "gender" : "female",
        "birthDate" : "1982-01-07"
      }
    },
    "item5": {
      "response": {
        "status": "200 OK"
      },
      "resource": null
    },
    "item6": {
      "response": {
        "status": "200 OK"
      },
      "resource": null
    },
    "item7": {
      "response": {
        "status": "200 OK"
      },
      "resource": null
    },
    "item8": {
      "response": {
        "status": "200 OK"
      },
      "resource": null
    },
    "item9": {
      "response": {
        "status": "200 OK"
      },
      "resource": null
    },
    "item10": {
      "response": {
        "status": "200 OK"
      },
      "resource": null
    },
    "item11": {
      "response": {
        "status": "200 OK"
      },
      "resource": null
    },
    "item12": {
      "response": {
        "status": "200 OK"
      },
      "resource": null
    },
    "item13": {
      "response": {
        "status": "200 OK"
      },
      "resource": null
    },
    "item14": {
      "response": {
        "status": "200 OK"
      },
      "resource": null
    }
  ,
    "item15": {
      "response": {
        "status": "200 OK"
      },
      "resource": null
    }  }
}