{
  "hookInstance": "ad826245-abcd-4ff3-a2d1-01c7fec62aee",
  "fhirServer": "http://localhost:8080/cqf-ruler/baseDstu3",
  "hook": "medication-prescribe",
  "user": "Practitioner/example",
  "applyCql": true,
  "context": {
    "patientId": "Patient/example-rec-07-seven-of-past-ten-days",
    "encounterId": "Encounter/example-rec-07-seven-of-past-ten-days-context",
    "medications": [
      {
        "resourceType": "MedicationRequest",
        "id": "example-rec-07-seven-of-past-ten-days-context",
        "status": "active",
        "intent": "order",
        "category": {
          "coding": [
            {
              "code": "outpatient"
            }
          ]
        },
        "medicationCodeableConcept": {
          "coding": [
            {
              "system": "http://www.nlm.nih.gov/research/umls/rxnorm",
              "code": "1049502",
              "display": "12 HR Oxycodone Hydrochloride 10 MG Extended Release Oral Tablet"
            }
          ]
        },
        "subject": {
          "reference": "Patient/example-rec-07-seven-of-past-ten-days"
        },
        "context": {
          "reference": "Encounter/example-rec-07-seven-of-past-ten-days-context"
        },
        "_authoredOn": {
          "extension": [
            {
              "url": "http://hl7.org/fhir/StructureDefinition/cqif-cqlExpression",
              "valueString": "Today()"
            }
          ]
        },
        "dosageInstruction": [
          {
            "timing": {
              "repeat": {
                "frequency": 1,
                "period": 1.0,
                "periodUnit": "d"
              }
            },
            "asNeededBoolean": false,
            "doseQuantity": {
              "value": 1.0,
              "unit": "tablet"
            }
          }
        ],
        "dispenseRequest": {
          "validityPeriod": {
            "extension": [
              {
                "url": "http://hl7.org/fhir/StructureDefinition/cqif-cqlExpression",
                "valueString": "FHIR.Period { start: FHIR.dateTime { value: Today() }, end: FHIR.dateTime { value: Today() + 3 months } }"
              }
            ]
          },
          "numberOfRepeatsAllowed": 1,
          "expectedSupplyDuration": {
            "value": 7.0,
            "unit": "d"
          }
        }
      }
    ]
  },
  "prefetch": {
    "item1": {
      "response": {
        "status": "200 OK"
      },
      "resource": {
        "resourceType": "Encounter",
        "id": "example-rec-07-seven-of-past-ten-days-prefetch",
        "status": "finished",
        "subject": {
          "reference": "Patient/example-rec-07-seven-of-past-ten-days"
        },
        "period": {
          "extension": [
            {
              "url": "http://hl7.org/fhir/StructureDefinition/cqif-cqlExpression",
              "valueString": "FHIR.Period { start: FHIR.dateTime { value: Today() - 10 days }, end: FHIR.dateTime { value: Today() - 10 days } }"
            }
          ]
        }
      }
    },
    "item2": {
      "response": {
        "status": "200 OK"
      },
      "resource": {
        "resourceType": "MedicationRequest",
        "id": "example-rec-07-seven-of-past-ten-days-prefetch",
        "status": "active",
        "intent": "order",
        "category": {
          "coding": [
            {
              "code": "outpatient"
            }
          ]
        },
        "medicationCodeableConcept": {
          "coding": [
            {
              "system": "http://www.nlm.nih.gov/research/umls/rxnorm",
              "code": "1049502",
              "display": "12 HR Oxycodone Hydrochloride 10 MG Extended Release Oral Tablet"
            }
          ]
        },
        "subject": {
          "reference": "Patient/example-rec-07-seven-of-past-ten-days"
        },
        "context": {
          "reference": "Encounter/example-rec-07-seven-of-past-ten-days-prefetch"
        },
        "_authoredOn": {
          "extension": [
            {
              "url": "http://hl7.org/fhir/StructureDefinition/cqif-cqlExpression",
              "valueString": "Today() - 10 days"
            }
          ]
        },
        "dosageInstruction": [
          {
            "timing": {
              "repeat": {
                "frequency": 1,
                "period": 1.0,
                "periodUnit": "d"
              }
            },
            "asNeededBoolean": false,
            "doseQuantity": {
              "value": 1.0,
              "unit": "tablet"
            }
          }
        ],
        "dispenseRequest": {
          "validityPeriod": {
            "extension": [
              {
                "url": "http://hl7.org/fhir/StructureDefinition/cqif-cqlExpression",
                "valueString": "FHIR.Period { start: FHIR.dateTime { value: Today() - 10 days }, end: FHIR.dateTime { value: Today() } }"
              }
            ]
          },
          "numberOfRepeatsAllowed": 1,
          "expectedSupplyDuration": {
            "value": 7.0,
            "unit": "d"
          }
        }
      }
    },
    "item3": {
      "response": {
        "status": "200 OK"
      },
      "resource": {
        "resourceType": "Patient",
        "id": "example-rec-07-seven-of-past-ten-days",
        "gender": "male",
        "birthDate": "1982-01-10"
      }
    },
    "item4": {
      "response": {
        "status": "200 OK"
      },
      "resource": null
    },
    "item5": {
      "response": {
        "status": "200 OK"
      },
      "resource": null
    },
    "item6": {
      "response": {
        "status": "200 OK"
      },
      "resource": null
    },
    "item7": {
      "response": {
        "status": "200 OK"
      },
      "resource": null
    },
    "item8": {
      "response": {
        "status": "200 OK"
      },
      "resource": null
    },
    "item9": {
      "response": {
        "status": "200 OK"
      },
      "resource": null
    },
    "item10": {
      "response": {
        "status": "200 OK"
      },
      "resource": null
    },
    "item11": {
      "response": {
        "status": "200 OK"
      },
      "resource": null
    },
    "item12": {
      "response": {
        "status": "200 OK"
      },
      "resource": null
    },
    "item13": {
      "response": {
        "status": "200 OK"
      },
      "resource": null
    },
    "item14": {
      "response": {
        "status": "200 OK"
      },
      "resource": null
    }
  }
}