{
  "resourceType": "Bundle",
  "type": "transaction",
  "entry": [
    {
      "resource": {
        "resourceType": "Library",
        "id": "OMTKLogic",
        "meta": {
          "versionId": "3",
          "lastUpdated": "2017-07-25T09:54:33.579+00:00"
        },
        "version": "0.1.0",
        "status": "draft",
        "type": {
          "coding": [
            {
              "code": "logic-library"
            }
          ]
        },
        "content": [
          {
            "contentType": "application/elm+xml",
            "data": ""
          }
        ]
      },
      "request": {
        "method": "PUT",
        "url": "http://localhost:8080/cqf-ruler/baseDstu3/Library/OMTKLogic"
      }
    },
    {
      "resource": {
        "resourceType": "Library",
        "id": "OpioidCdsStu3",
        "version": "0.1.0",
        "type": {
          "coding": [
            {
              "code": "logic-library"
            }
          ]
        },
        "status": "draft",
        "content": [
          {
            "contentType": "application/elm+xml",
            "data": ""
          }
        ]
      },
      "request": {
        "method": "PUT",
        "url": "http://localhost:8080/cqf-ruler/baseDstu3/Library/OpioidCdsStu3"
      }
    },
    {
      "resource": {
        "resourceType": "PlanDefinition",
        "id": "cdc-opioid-guidance",
        "text": {
          "status": "generated",
          "div": "<div xmlns=\"http://www.w3.org/1999/xhtml\">CDC Opioid Prescribing Guideline Recommendation #5</div>"
        },
        "url": "http://hl7.org/fhir/ig/opioid-cds/PlanDefinition/cdc-opioid-05",
        "identifier": [
          {
            "use": "official",
            "value": "cdc-opioid-guidance"
          }
        ],
        "version": "0.1.0",
        "name": "cdc-opioid-05",
        "title": "CDC Opioid Prescribing Guideline Recommendation #5",
        "type": {
          "coding": [
            {
              "system": "http://hl7.org/fhir/plan-definition-type",
              "code": "eca-rule",
              "display": "ECA Rule"
            }
          ]
        },
        "status": "draft",
        "date": "2017-04-23",
        "publisher": "Centers for Disease Control and Prevention (CDC)",
        "description": "When opioids are started, providers should prescribe the lowest effective dosage.",
        "purpose": "CDC’s Guideline for Prescribing Opioids for Chronic Pain is intended to improve communication between providers and patients about the risks and benefits of opioid therapy for chronic pain, improve the safety and effectiveness of pain treatment, and reduce the risks associated with long-term opioid therapy, including opioid use disorder and overdose. The Guideline is not intended for patients who are in active cancer treatment, palliative care, or end-of-life care.",
        "usage": "Providers should use caution when prescribing opioids at any dosage, should carefully reassess evidence of individual benefits and risks when considering increasing dosage to ≥50 morphine milligram equivalents (MME)/day, and should avoid increasing dosage to ≥90 MME/day or carefully justify a decision to titrate dosage to >90 MME/day",
        "topic": [
          {
            "text": "Opioid Prescribing"
          }
        ],
        "relatedArtifact": [
          {
            "type": "documentation",
            "display": "CDC guideline for prescribing opioids for chronic pain",
            "url": "https://guidelines.gov/summaries/summary/50153/cdc-guideline-for-prescribing-opioids-for-chronic-pain---united-states-2016#420"
          },
          {
            "type": "documentation",
            "display": "MME Conversion Tables",
            "url": "https://www.cdc.gov/drugoverdose/pdf/calculating_total_daily_dose-a.pdf"
          }
        ],
        "library": [
          {
            "reference": "Library/OpioidCdsStu3"
          }
        ],
        "action": [
          {
            "title": "High risk for opioid overdose.",
            "description": "Total morphine milligram equivalent (MME) exceeds recommended amount. Taper to less than 50.",
            "triggerDefinition": [
              {
                "type": "named-event",
                "eventName": "medication-prescribe"
              }
            ],
            "condition": [
              {
                "kind": "applicability",
                "description": "Is total MME >= 50?",
                "language": "text/cql",
                "expression": "IsMME50OrMore"
              }
            ],
            "groupingBehavior": "visual-group",
            "selectionBehavior": "exactly-one",
            "dynamicValue": [
              {
                "path": "action.title",
                "expression": "getSummary"
              },
              {
                "path": "action.description",
                "expression": "getDetail"
              },
              {
                "path": "activity.extension",
                "expression": "getIndicator"
              }
            ]
          },
          {
            "title": "Patient has not had a urine screening in the past 12 months",
            "description": "When prescribing opioids for chronic pain, clinicians should use urine drug testing before starting opioid therapy and consider urine drug testing at least annually to assess for prescribed medications as well as other controlled prescription drugs and illicit drugs",
            "triggerDefinition": [
              {
                "type": "named-event",
                "eventName": "medication-prescribe"
              }
            ],
            "condition": [
              {
                "kind": "applicability",
                "description": "Patient has not had a urine screening in the past 12 months",
                "language": "text/cql",
                "expression": "No Screenings in Past Year"
              }
            ],
            "dynamicValue": [
              {
                "path": "activity.extension",
                "expression": "Get Indicator"
              }
            ]
          },
          {
            "condition": [
              {
                "kind": "applicability",
                "description": "Patient has a positive urine screening in the past 12 months",
                "language": "text/cql",
                "expression": "Has Positive Screening?"
              }
            ],
            "action": [
              {
                "title": "Patient has a positive urine screening in the past 12 months for opioid(s), which is not prescribed",
                "condition": [
                  {
                    "kind": "applicability",
                    "description": "Patient has a positive urine screening in the past 12 months for opioid(s), which is not prescribed",
                    "language": "text/cql",
                    "expression": "Found Unprescribed Opioid in Screening"
                  }
                ],
                "dynamicValue": [
                  {
                    "path": "activity.extension",
                    "expression": "Get Indicator"
                  },
                  {
                    "path": "action.description",
                    "expression": "Inconsistent Unprescribed Opioids"
                  }
                ]
              },
              {
                "title": "Patient has a positive urine screening in the past 12 months, which does not include prescribed opioids",
                "condition": [
                  {
                    "kind": "applicability",
                    "description": "Patient has a positive urine screening in the past 12 months, which does not include prescribed opioids",
                    "language": "text/cql",
                    "expression": "Has Missing Opioids?"
                  }
                ],
                "dynamicValue": [
                  {
                    "path": "activity.extension",
                    "expression": "Get Indicator"
                  },
                  {
                    "path": "action.description",
                    "expression": "Inconsistent Missing Opioids"
                  }
                ]
              },
              {
                "title": "Patient has a positive urine screening in the past 12 months for illicit drugs",
                "condition": [
                  {
                    "kind": "applicability",
                    "description": "Patient has a positive urine screening in the past 12 months for illicit drugs",
                    "language": "text/cql",
                    "expression": "Has Illicit Drugs in Screening?"
                  }
                ],
                "dynamicValue": [
                  {
                    "path": "activity.extension",
                    "expression": "Get Indicator"
                  },
                  {
                    "path": "action.description",
                    "expression": "Inconsistent Illicit Drugs"
                  }
                ]
              }
            ]
          }
        ]
      },
      "request": {
        "method": "PUT",
        "url": "http://localhost:8080/cqf-ruler/baseDstu3/PlanDefinition/cdc-opioid-guidance"
      }
    },
    {
      "resource": {
        "resourceType": "PlanDefinition",
        "id": "cdc-urine-analysis",
        "text": {
          "status": "generated",
          "div": "<div xmlns=\"http://www.w3.org/1999/xhtml\">CDC Opioid Prescribing Guideline Recommendation #10</div>"
        },
        "identifier": [
          {
            "use": "official",
            "value": "cdc-urine-analysis"
          }
        ],
        "version": "0.1.0",
        "name": "cdc-opioid-10",
        "title": "CDC Opioid Prescribing Guideline Recommendation #10",
        "type": {
          "coding": [
            {
              "system": "http://hl7.org/fhir/plan-definition-type",
              "code": "eca-rule",
              "display": "ECA Rule"
            }
          ]
        },
        "status": "draft",
        "date": "2017-04-23",
        "publisher": "Centers for Disease Control and Prevention (CDC)",
        "relatedArtifact": [
          {
            "type": "documentation",
            "display": "CDC guideline for prescribing opioids for chronic pain",
            "url": "https://guidelines.gov/summaries/summary/50153/cdc-guideline-for-prescribing-opioids-for-chronic-pain---united-states-2016#420"
          }
        ],
        "library": [
          {
            "reference": "Library/medication-prescribe"
          }
        ],
        "action": [
          {
            "title": "Patient has not had a urine screening in the past 12 months",
            "description": "When prescribing opioids for chronic pain, clinicians should use urine drug testing before starting opioid therapy and consider urine drug testing at least annually to assess for prescribed medications as well as other controlled prescription drugs and illicit drugs",
            "triggerDefinition": [
              {
                "type": "named-event",
                "eventName": "medication-prescribe"
              }
            ],
            "condition": [
              {
                "kind": "applicability",
                "description": "Patient has not had a urine screening in the past 12 months",
                "language": "text/cql",
                "expression": "No Screenings in Past Year"
              }
            ],
            "groupingBehavior": "visual-group",
            "selectionBehavior": "exactly-one",
            "dynamicValue": [
              {
                "path": "activity.extension",
                "expression": "Get Indicator"
              }
            ]
          },
          {
            "condition": [
              {
                "kind": "applicability",
                "description": "Patient has a positive urine screening in the past 12 months",
                "language": "text/cql",
                "expression": "Has Positive Screening"
              }
            ],
            "action": [
              {
                "title": "Patient has a positive urine screening in the past 12 months for opioid(s), which is not prescribed",
                "condition": [
                  {
                    "kind": "applicability",
                    "description": "Patient has a positive urine screening in the past 12 months for opioid(s), which is not prescribed",
                    "language": "text/cql",
                    "expression": "Found Unprescribed Opioid in Screening"
                  }
                ],
                "dynamicValue": [
                  {
                    "path": "activity.extension",
                    "expression": "Get Indicator"
                  },
                  {
                    "path": "action.description",
                    "expression": "Inconsistent Unprescribed Opioid Drugs"
                  }
                ]
              },
              {
                "title": "Patient has a positive urine screening in the past 12 months, which does not include prescribed opioids",
                "condition": [
                  {
                    "kind": "applicability",
                    "description": "Patient has a positive urine screening in the past 12 months, which does not include prescribed opioids",
                    "language": "text/cql",
                    "expression": "Did Not Find Prescribed Opioid"
                  }
                ],
                "dynamicValue": [
                  {
                    "path": "activity.extension",
                    "expression": "Get Indicator"
                  },
                  {
                    "path": "action.description",
                    "expression": "Inconsistent Missing Opioid Drugs"
                  }
                ]
              },
              {
                "title": "Patient has a positive urine screening in the past 12 months for illicit drugs",
                "condition": [
                  {
                    "kind": "applicability",
                    "description": "Patient has a positive urine screening in the past 12 months for illicit drugs",
                    "language": "text/cql",
                    "expression": "Found Illicit Drugs in Screening"
                  }
                ],
                "dynamicValue": [
                  {
                    "path": "activity.extension",
                    "expression": "Get Indicator"
                  },
                  {
                    "path": "action.description",
                    "expression": "Inconsistent Illicit Drugs"
                  }
                ]
              }
            ]
          }
        ]
      },
      "request": {
        "method": "PUT",
        "url": "http://localhost:8080/cqf-ruler/baseDstu3/PlanDefinition/cdc-urine-analysis"
      }
    },
    {
      "resource": {
        "resourceType": "Library",
        "id": "medication-prescribe",
        "version": "0.1.0",
        "type": {
          "coding": [
            {
              "code": "logic-library"
            }
          ]
        },
        "status": "draft",
        "content": [
          {
            "contentType": "application/elm+xml",
            "data": ""
          }
        ]
      },
      "request": {
        "method": "PUT",
        "url": "http://localhost:8080/cqf-ruler/baseDstu3/Library/medication-prescribe"
      }
    },
    {
      "resource": {
        "resourceType": "Observation",
        "id": "urine-analysis-illicit-drugs",
        "status": "final",
        "code": {
          "coding": [
            {
              "system": "http://loinc.org",
              "code": "3779-6"
            }
          ]
        },
        "subject": {
          "reference": "Patient/Patient-1121"
        },
        "effectiveDateTime": "2017-12-12",
        "interpretation": {
          "coding": [
            {
              "system": "https://www.hl7.org/fhir/v2/0078/index.html",
              "code": "POS"
            }
          ]
        }
      },
      "request": {
        "method": "PUT",
        "url": "http://localhost:8080/cqf-ruler/baseDstu3/Observation/urine-analysis-illicit-drugs"
      }
    }
  ]
}