{
  "resourceType": "Bundle",
  "type": "transaction",
  "entry": [
    {
      "resource": {
        "resourceType": "Patient",
        "id": "Patient-6532",
        "extension": [
          {
            "url": "http://hl7.org/fhir/us/core/StructureDefinition/us-core-race",
            "valueCodeableConcept": {
              "coding": [
                {
                  "system": "http://hl7.org/fhir/v3/Race",
                  "code": "2106-3",
                  "display": "White"
                }
              ]
            }
          },
          {
            "url": "http://hl7.org/fhir/us/core/StructureDefinition/us-core-ethnicity",
            "valueCodeableConcept": {
              "coding": [
                {
                  "system": "http://hl7.org/fhir/v3/Ethnicity",
                  "code": "2186-5",
                  "display": "Not Hispanic or Latino"
                }
              ]
            }
          },
          {
            "url": "http://hl7.org/fhir/us/core/StructureDefinition/us-core-religion",
            "valueCodeableConcept": {
              "coding": [
                {
                  "system": "http://hl7.org/fhir/v3/ReligiousAffiliation",
                  "code": "1041",
                  "display": "Roman Catholic Church"
                }
              ]
            }
          }
        ],
        "identifier": [
          {
            "use": "official",
            "type": {
              "coding": [
                {
                  "system": "http://hl7.org/fhir/identifier-type",
                  "code": "SB",
                  "display": "Social Beneficiary Identifier"
                }
              ],
              "text": "US Social Security Number"
            },
            "system": "http://hl7.org/fhir/sid/us-ssn",
            "value": "000006532"
          }
        ],
        "active": true,
        "name": [
          {
            "family": "Brandt",
            "given": [
              "Edith",
              "Elaine"
            ]
          }
        ],
        "telecom": [
          {
            "system": "phone",
            "value": "616-555-1082",
            "use": "home"
          },
          {
            "system": "phone",
            "value": "616-555-1211",
            "use": "mobile"
          }
        ],
        "gender": "female",
        "birthDate": "1987-07-16",
        "address": [
          {
            "use": "home",
            "type": "postal",
            "line": [
              "893 N Elm Drive"
            ],
            "city": "Grand Rapids",
            "district": "Kent County",
            "state": "MI",
            "postalCode": "49504"
          }
        ]
      },
      "request": {
        "method": "PUT",
        "url": "http://localhost:8080/cqf-ruler/baseDstu3/Patient/Patient-6532"
      }
    },
    {
      "resource": {
        "resourceType": "PlanDefinition",
        "id": "ccs-decision-support",
        "status": "draft",
        "library": {
          "reference": "Library/patient-view"
        },
        "action": [
          {
            "condition": [
              {
                "kind": "applicability",
                "language": "text/cql",
                "expression": "Does Patient Qualify?"
              }
            ],
            "action": [
              {
                "condition": [
                  {
                    "kind": "applicability",
                    "language": "text/cql",
                    "expression": "Needs Cervical Cytology Test"
                  }
                ],
                "definition": {
                  "reference": "ActivityDefinition/cervical-cytology-service-request"
                }
              }
            ]
          }
        ]
      },
      "request": {
        "method": "PUT",
        "url": "http://localhost:8080/cqf-ruler/baseDstu3/PlanDefinition/ccs-decision-support"
      }
    },
    {
      "resource": {
        "resourceType": "ActivityDefinition",
        "id": "cervical-cytology-service-request",
        "text": {
          "status": "generated",
          "div": "<div xmlns=\"http://www.w3.org/1999/xhtml\">Create ServiceRequest for Cervical Cytology Test</div>"
        },
        "status": "draft",
        "description": "Create ServiceRequest for Cervical Cytology Test",
        "kind": "ProcedureRequest",
        "code": {
          "coding": [
            {
              "system": "http://loinc.org",
              "code": "33717-0",
              "display": "Cytology Cervical or vaginal smear or scraping study"
            }
          ]
        },
        "timingTiming": {
          "_event": [
            {
              "extension": [
                {
                  "url": "http://hl7.org/fhir/StructureDefinition/cqif-basic-cqlExpression",
                  "valueString": "Now()"
                }
              ]
            }
          ]
        },
        "participant": [
          {
            "type": "practitioner"
          }
        ]
      },
      "request": {
        "method": "PUT",
        "url": "http://localhost:8080/cqf-ruler/baseDstu3/ActivityDefinition/cervical-cytology-service-request"
      }
    },
    {
      "resource": {
        "resourceType": "Library",
        "id": "patient-view",
        "version": "1.0.0",
        "status": "active",
        "experimental": true,
        "type": {
          "coding": [
            {
              "code": "logic-library"
            }
          ]
        },
        "dataRequirement": [
          {
            "type": "Procedure",
            "codeFilter": [
              {
                "path": "code",
                "valueSetString": "Absence of Cervix Value Set"
              }
            ]
          },
          {
            "type": "Procedure",
            "codeFilter": [
              {
                "path": "code",
                "valueSetString": "Cervical Cytology Value Set"
              }
            ]
          },
          {
            "type": "DiagnosticReport",
            "codeFilter": [
              {
                "path": "code",
                "valueSetString": "Cervical Cytology Value Set"
              }
            ]
          },
          {
            "type": "Observation",
            "codeFilter": [
              {
                "path": "code",
                "valueSetString": "Cervical Cytology Value Set"
              }
            ]
          },
          {
            "type": "Procedure",
            "codeFilter": [
              {
                "path": "code",
                "valueSetString": "HPV Tests Value Set"
              }
            ]
          },
          {
            "type": "DiagnosticReport",
            "codeFilter": [
              {
                "path": "code",
                "valueSetString": "HPV Tests Value Set"
              }
            ]
          },
          {
            "type": "Observation",
            "codeFilter": [
              {
                "path": "code",
                "valueSetString": "HPV Tests Value Set"
              }
            ]
          }
        ],
        "content": [
          {
            "contentType": "application/elm+xml",
            "data": ""
          }
        ]
      },
      "request": {
        "method": "PUT",
        "url": "http://localhost:8080/cqf-ruler/baseDstu3/Library/patient-view"
      }
    }
  ]
}