{
  "resourceType": "Bundle",
  "type": "transaction",
  "entry": [
    {
      "resource": {
        "resourceType": "Patient",
        "id": "Patient-276",
        "meta": {
          "versionId": "1",
          "lastUpdated": "2017-07-24T19:36:37.848+00:00"
        },
        "text": {
          "status": "generated",
          "div": "<div xmlns=\"http://www.w3.org/1999/xhtml\"><div class=\"hapiHeaderText\">Andrea Montgomery <b>WOODARD </b></div><table class=\"hapiPropertyTable\"><tbody><tr><td>Identifier</td><td>000000014</td></tr><tr><td>Address</td><td><span>637 Jefferson Court </span><br/><span>West Bloomfield </span><span>MI </span></td></tr><tr><td>Date of birth</td><td><span>07 August 1960</span></td></tr></tbody></table></div>"
        },
        "extension": [
          {
            "url": "http://hl7.org/fhir/StructureDefinition/us-core-race",
            "valueCodeableConcept": {
              "coding": [
                {
                  "system": "http://hl7.org/fhir/v3/Race",
                  "code": "2106-3",
                  "display": "White"
                }
              ]
            }
          },
          {
            "url": "http://hl7.org/fhir/StructureDefinition/us-core-ethnicity",
            "valueCodeableConcept": {
              "coding": [
                {
                  "system": "http://hl7.org/fhir/v3/Ethnicity",
                  "code": "2186-5",
                  "display": "Not Hispanic or Latino"
                }
              ]
            }
          },
          {
            "url": "http://hl7.org/fhir/StructureDefinition/us-core-religion",
            "valueCodeableConcept": {
              "coding": [
                {
                  "system": "http://hl7.org/fhir/v3/ReligiousAffiliation",
                  "code": "1041",
                  "display": "Roman Catholic Church"
                }
              ]
            }
          }
        ],
        "identifier": [
          {
            "use": "official",
            "type": {
              "coding": [
                {
                  "system": "http://hl7.org/fhir/identifier-type",
                  "code": "SB",
                  "display": "Social Beneficiary Identifier"
                }
              ],
              "text": "US Social Security Number"
            },
            "system": "http://hl7.org/fhir/sid/us-ssn",
            "value": "000000014"
          },
          {
            "use": "official",
            "type": {
              "coding": [
                {
                  "system": "http://hl7.org/fhir/identifier-type",
                  "code": "SB",
                  "display": "Social Beneficiary Identifier"
                }
              ],
              "text": "Michigan Common Key Service Identifier"
            },
            "system": "http://mihin.org/fhir/cks",
            "value": "d74e60bc008b463e8072d792aa15095e"
          }
        ],
        "active": true,
        "name": [
          {
            "family": "Woodard",
            "given": [
              "Andrea",
              "Montgomery"
            ]
          }
        ],
        "telecom": [
          {
            "system": "phone",
            "value": "248-555-6663",
            "use": "home"
          },
          {
            "system": "phone",
            "value": "248-555-9907",
            "use": "mobile"
          }
        ],
        "gender": "female",
        "birthDate": "1960-08-07",
        "address": [
          {
            "use": "home",
            "type": "postal",
            "line": [
              "637 Jefferson Court"
            ],
            "city": "West Bloomfield",
            "district": "Oakland County",
            "state": "MI",
            "postalCode": "48322"
          }
        ]
      },
      "request": {
        "method": "PUT",
        "url": "http://localhost:8080/cqf-ruler/baseDstu3/Patient/Patient-276"
      }
    },
    {
      "resource": {
        "resourceType": "Library",
        "id": "col-decision-support-logic",
        "version": "1.0",
        "status": "active",
        "experimental": true,
        "type": {
          "coding": [
            {
              "code": "logic-library"
            }
          ]
        },
        "dataRequirement": [
          {
            "type": "Procedure",
            "codeFilter": [
              {
                "path": "code",
                "valueSetString": "Total Colectomy Value Set (CPT)"
              }
            ]
          },
          {
            "type": "Procedure",
            "codeFilter": [
              {
                "path": "code",
                "valueSetString": "Total Colectomy Value Set (ICD10)"
              }
            ]
          },
          {
            "type": "Procedure",
            "codeFilter": [
              {
                "path": "code",
                "valueSetString": "Total Colectomy Value Set (ICD9)"
              }
            ]
          },
          {
            "type": "Condition",
            "codeFilter": [
              {
                "path": "code",
                "valueSetString": "Colorectal Cancer Value Set (ICD10)"
              }
            ]
          },
          {
            "type": "Condition",
            "codeFilter": [
              {
                "path": "code",
                "valueSetString": "Colorectal Cancer Value Set (ICD9)"
              }
            ]
          },
          {
            "type": "Observation",
            "codeFilter": [
              {
                "path": "code",
                "valueSetString": "FOBT Value Set (CPT)"
              }
            ]
          },
          {
            "type": "Observation",
            "codeFilter": [
              {
                "path": "code",
                "valueSetString": "FOBT Value Set (HCPCS)"
              }
            ]
          },
          {
            "type": "Observation",
            "codeFilter": [
              {
                "path": "code",
                "valueSetString": "FOBT Value Set (ICD9)"
              }
            ]
          },
          {
            "type": "DiagnosticReport",
            "codeFilter": [
              {
                "path": "code",
                "valueSetString": "Flexible Sigmoidoscopy Value Set (CPT)"
              }
            ]
          },
          {
            "type": "DiagnosticReport",
            "codeFilter": [
              {
                "path": "code",
                "valueSetString": "Flexible Sigmoidoscopy Value Set (HCPCS)"
              }
            ]
          },
          {
            "type": "DiagnosticReport",
            "codeFilter": [
              {
                "path": "code",
                "valueSetString": "Flexible Sigmoidoscopy Value Set (ICD9)"
              }
            ]
          },
          {
            "type": "DiagnosticReport",
            "codeFilter": [
              {
                "path": "code",
                "valueSetString": "Colonoscopy Value Set (CPT)"
              }
            ]
          },
          {
            "type": "DiagnosticReport",
            "codeFilter": [
              {
                "path": "code",
                "valueSetString": "Colonoscopy Value Set (HCPCS)"
              }
            ]
          },
          {
            "type": "DiagnosticReport",
            "codeFilter": [
              {
                "path": "code",
                "valueSetString": "Colonoscopy Value Set (ICD9)"
              }
            ]
          },
          {
            "type": "DiagnosticReport",
            "codeFilter": [
              {
                "path": "code",
                "valueSetString": "CT Colonography Value Set"
              }
            ]
          },
          {
            "type": "Observation",
            "codeFilter": [
              {
                "path": "code",
                "valueSetString": "FIT-DNA Value Set (CPT)"
              }
            ]
          },
          {
            "type": "Observation",
            "codeFilter": [
              {
                "path": "code",
                "valueSetString": "FIT-DNA Value Set (HCPCS)"
              }
            ]
          },
          {
            "type": "Observation",
            "codeFilter": [
              {
                "path": "code",
                "valueSetString": "FIT-DNA Value Set (LOINC)"
              }
            ]
          }
        ],
        "content": [
          {
            "contentType": "application/elm+xml",
            "data": ""
          }
        ]
      },
      "request": {
        "method": "PUT",
        "url": "http://localhost:8080/cqf-ruler/baseDstu3/Library/patient-view"
      }
    },
    {
      "resource": {
        "resourceType": "PlanDefinition",
        "id": "col-decision-support",
        "status": "draft",
        "library": {
          "reference": "Library/col-decision-support-logic"
        },
        "action": [
          {
            "condition": [
              {
                "kind": "applicability",
                "language": "text/cql",
                "expression": "Does Patient Qualify?"
              }
            ],
            "action": [
              {
                "condition": [
                  {
                    "kind": "applicability",
                    "language": "text/cql",
                    "expression": "Needs Fecal Occult Blood Test"
                  }
                ],
                "type": {
                  "system": "http://hl7.org/fhir/action-type",
                  "code": "create"
                },
                "definition": {
                  "reference": "ActivityDefinition/fobt-service-request"
                },
                "dynamicValue": [
                  {
                    "path": "action.title",
                    "expression": "FOBTSummary"
                  },
                  {
                    "path": "action.description",
                    "expression": "FOBTDetail"
                  },
                  {
                    "path": "activity.extension",
                    "expression": "FOBTIndicator"
                  }
                ]
              },
              {
                "condition": [
                  {
                    "kind": "applicability",
                    "language": "text/cql",
                    "expression": "Needs Flexible Sigmoidoscopy"
                  }
                ],
                "type": {
                  "system": "http://hl7.org/fhir/action-type",
                  "code": "create"
                },
                "definition": {
                  "reference": "ActivityDefinition/flexible-sigmoidoscopy-service-request"
                },
                "dynamicValue": [
                  {
                    "path": "action.title",
                    "expression": "FlexibleSigmoidoscopySummary"
                  },
                  {
                    "path": "action.description",
                    "expression": "FlexibleSigmoidoscopyDetail"
                  },
                  {
                    "path": "activity.extension",
                    "expression": "FlexibleSigmoidoscopyIndicator"
                  }
                ]
              },
              {
                "condition": [
                  {
                    "kind": "applicability",
                    "language": "text/cql",
                    "expression": "Needs Colonoscopy"
                  }
                ],
                "type": {
                  "system": "http://hl7.org/fhir/action-type",
                  "code": "create"
                },
                "definition": {
                  "reference": "ActivityDefinition/colonoscopy-service-request"
                },
                "dynamicValue": [
                  {
                    "path": "action.title",
                    "expression": "ColonoscopySummary"
                  },
                  {
                    "path": "action.description",
                    "expression": "ColonoscopyDetail"
                  },
                  {
                    "path": "activity.extension",
                    "expression": "ColonoscopyIndicator"
                  }
                ]
              },
              {
                "condition": [
                  {
                    "kind": "applicability",
                    "language": "text/cql",
                    "expression": "Needs CT Colonography"
                  }
                ],
                "type": {
                  "system": "http://hl7.org/fhir/action-type",
                  "code": "create"
                },
                "definition": {
                  "reference": "ActivityDefinition/colonography-service-request"
                },
                "dynamicValue": [
                  {
                    "path": "action.title",
                    "expression": "ColonographySummary"
                  },
                  {
                    "path": "action.description",
                    "expression": "ColonographyDetail"
                  },
                  {
                    "path": "activity.extension",
                    "expression": "ColonographyIndicator"
                  }
                ]
              },
              {
                "condition": [
                  {
                    "kind": "applicability",
                    "language": "text/cql",
                    "expression": "Needs FIT-DNA Test"
                  }
                ],
                "type": {
                  "system": "http://hl7.org/fhir/action-type",
                  "code": "create"
                },
                "definition": {
                  "reference": "ActivityDefinition/fit-dna-service-request"
                },
                "dynamicValue": [
                  {
                    "path": "action.title",
                    "expression": "FITDNASummary"
                  },
                  {
                    "path": "action.description",
                    "expression": "FITDNADetail"
                  },
                  {
                    "path": "activity.extension",
                    "expression": "FITDNAIndicator"
                  }
                ]
              }
            ]
          }
        ]
      },
      "request": {
        "method": "PUT",
        "url": "http://localhost:8080/cqf-ruler/baseDstu3/PlanDefinition/col-decision-support"
      }
    },
    {
      "resource": {
        "resourceType": "ActivityDefinition",
        "id": "colonography-service-request",
        "text": {
          "status": "generated",
          "div": "<div xmlns=\"http://www.w3.org/1999/xhtml\">Create ServiceRequest for CT Colonography Procedure</div>"
        },
        "status": "draft",
        "description": "Create ServiceRequest for CT Colonography Procedure",
        "kind": "ProcedureRequest",
        "code": {
          "coding": [
            {
              "system": "http://www.ama-assn.org/go/cpt",
              "code": "74261",
              "display": "Computed tomographic (CT) colonography, diagnostic, including image postprocessing, without contract material"
            }
          ]
        },
        "timingTiming": {
          "_event": [
            {
              "extension": [
                {
                  "url": "http://hl7.org/fhir/StructureDefinition/cqif-basic-cqlExpression",
                  "valueString": "Now()"
                }
              ]
            }
          ]
        },
        "participant": [
          {
            "type": "practitioner"
          }
        ]
      },
      "request": {
        "method": "PUT",
        "url": "http://localhost:8080/cqf-ruler/baseDstu3/ActivityDefinition/colonography-service-request"
      }
    },
    {
      "resource": {
        "resourceType": "ActivityDefinition",
        "id": "colonoscopy-service-request",
        "text": {
          "status": "generated",
          "div": "<div xmlns=\"http://www.w3.org/1999/xhtml\">Create ServiceRequest for Colonoscopy Procedure</div>"
        },
        "status": "draft",
        "description": "Create ServiceRequest for Colonoscopy Procedure",
        "kind": "ProcedureRequest",
        "code": {
          "coding": [
            {
              "system": "http://hl7.org/fhir/sid/icd-9-cm",
              "code": "45.23",
              "display": "Colonoscopy"
            }
          ]
        },
        "timingTiming": {
          "_event": [
            {
              "extension": [
                {
                  "url": "http://hl7.org/fhir/StructureDefinition/cqif-basic-cqlExpression",
                  "valueString": "Now()"
                }
              ]
            }
          ]
        },
        "participant": [
          {
            "type": "practitioner"
          }
        ]
      },
      "request": {
        "method": "PUT",
        "url": "http://localhost:8080/cqf-ruler/baseDstu3/ActivityDefinition/colonoscopy-service-request"
      }
    },
    {
      "resource": {
        "resourceType": "ActivityDefinition",
        "id": "fit-dna-service-request",
        "text": {
          "status": "generated",
          "div": "<div xmlns=\"http://www.w3.org/1999/xhtml\">Create ServiceRequest for FIT-DNA Test</div>"
        },
        "status": "draft",
        "description": "Create ServiceRequest for FIT-DNA Test",
        "kind": "ProcedureRequest",
        "code": {
          "coding": [
            {
              "system": "http://www.ama-assn.org/go/cpt",
              "code": "81528",
              "display": "Oncology (colorectal) screening, quantitative real-time target and signal amplification of 10 DNA markers (KRAS mutations, promoter methylation of NDRG4 and BMP3) and fecal hemoglobin, utilizing stool, algorithm reported as a positive or negative result"
            }
          ]
        },
        "timingTiming": {
          "_event": [
            {
              "extension": [
                {
                  "url": "http://hl7.org/fhir/StructureDefinition/cqif-basic-cqlExpression",
                  "valueString": "Now()"
                }
              ]
            }
          ]
        },
        "participant": [
          {
            "type": "practitioner"
          }
        ]
      },
      "request": {
        "method": "PUT",
        "url": "http://localhost:8080/cqf-ruler/baseDstu3/ActivityDefinition/fit-dna-service-request"
      }
    },
    {
      "resource": {
        "resourceType": "ActivityDefinition",
        "id": "flexible-sigmoidoscopy-service-request",
        "text": {
          "status": "generated",
          "div": "<div xmlns=\"http://www.w3.org/1999/xhtml\">Create ServiceRequest for Flexible Sigmoidoscopy Procedure</div>"
        },
        "status": "draft",
        "description": "Create ServiceRequest for Flexible Sigmoidoscopy Procedure",
        "kind": "ProcedureRequest",
        "code": {
          "coding": [
            {
              "system": "http://www.ama-assn.org/go/cpt",
              "code": "45530",
              "display": "Sigmoidoscopy, flexible; diagnostic, including collection of specimen(s) by brushing or washing, when performed (separate procedure)"
            }
          ]
        },
        "timingTiming": {
          "_event": [
            {
              "extension": [
                {
                  "url": "http://hl7.org/fhir/StructureDefinition/cqif-basic-cqlExpression",
                  "valueString": "Now()"
                }
              ]
            }
          ]
        },
        "participant": [
          {
            "type": "practitioner"
          }
        ]
      },
      "request": {
        "method": "PUT",
        "url": "http://localhost:8080/cqf-ruler/baseDstu3/ActivityDefinition/flexible-sigmoidoscopy-service-request"
      }
    },
    {
      "resource": {
        "resourceType": "ActivityDefinition",
        "id": "fobt-service-request",
        "text": {
          "status": "generated",
          "div": "<div xmlns=\"http://www.w3.org/1999/xhtml\">Create ServiceRequest for FOBT Procedure</div>"
        },
        "status": "draft",
        "description": "Create ServiceRequest for FOBT Procedure",
        "kind": "ProcedureRequest",
        "code": {
          "coding": [
            {
              "system": "http://www.ama-assn.org/go/cpt",
              "code": "82272",
              "display": "Fecal Occult Blood Test"
            }
          ]
        },
        "timingTiming": {
          "_event": [
            {
              "extension": [
                {
                  "url": "http://hl7.org/fhir/StructureDefinition/cqif-basic-cqlExpression",
                  "valueString": "Now()"
                }
              ]
            }
          ]
        },
        "participant": [
          {
            "type": "practitioner"
          }
        ]
      },
      "request": {
        "method": "PUT",
        "url": "http://localhost:8080/cqf-ruler/baseDstu3/ActivityDefinition/fobt-service-request"
      }
    }
  ]
}